pos,corr_resp,trials.thisRepN,trials.thisTrialN,trials.thisN,trials.thisIndex,trials_2.thisRepN,trials_2.thisTrialN,trials_2.thisN,trials_2.thisIndex,fixation.started,line1.started,line2.started,line3.started,line4.started,fixation.stopped,probe.started,key_resp.started,key_resp.keys,key_resp.corr,key_resp.rt,participant,session,date,expName,psychopyVersion,frameRate,
-50.0,x,0,0,0,0,,,,,7.77666466699975,8.827647125000112,8.827647125000112,8.827647125000112,8.827647125000112,8.836839999999938,9.769222541999625,9.769222541999625,x,1,2.185974790999353,203534,001,2022-09-30_11h59.33.809,lab tut 4,2022.2.4,60.131613067922224,
150.0,v,0,1,1,1,,,,,12.013138209000317,12.986369584000386,12.986369584000386,12.986369584000386,12.986369584000386,13.019316375000017,13.986271374999887,13.986271374999887,v,1,1.0478461239990793,203534,001,2022-09-30_11h59.33.809,lab tut 4,2022.2.4,60.131613067922224,
50.0,c,0,2,2,2,,,,,15.053014959000393,16.052831209000033,16.052831209000033,16.052831209000033,16.052831209000033,16.052831209000033,17.052713541999765,17.052713541999765,c,1,0.9157470410000315,203534,001,2022-09-30_11h59.33.809,lab tut 4,2022.2.4,60.131613067922224,
-150.0,z,0,3,3,3,,,,,17.986407792000136,18.98679658400033,18.98679658400033,18.98679658400033,18.98679658400033,18.98679658400033,19.986436750000394,19.986436750000394,z,1,0.732359498999358,203534,001,2022-09-30_11h59.33.809,lab tut 4,2022.2.4,60.131613067922224,
-50.0,x,1,0,4,0,,,,,20.736815875000502,21.736000459000024,21.736000459000024,21.736000459000024,21.736000459000024,21.736000459000024,22.737126042000455,22.737126042000455,c,0,0.6873382080002557,203534,001,2022-09-30_11h59.33.809,lab tut 4,2022.2.4,60.131613067922224,
150.0,v,1,1,5,1,,,,,23.45276691700019,24.45279174999996,24.45279174999996,24.45279174999996,24.45279174999996,24.45279174999996,25.453412750000098,25.453412750000098,v,1,0.516808833000141,203534,001,2022-09-30_11h59.33.809,lab tut 4,2022.2.4,60.131613067922224,
50.0,c,1,2,6,2,,,,,25.98699766699974,26.987024666999787,26.987024666999787,26.987024666999787,26.987024666999787,26.987024666999787,27.98610079199989,27.98610079199989,c,1,0.7053603329995894,203534,001,2022-09-30_11h59.33.809,lab tut 4,2022.2.4,60.131613067922224,
-150.0,z,1,3,7,3,,,,,28.71973466700001,29.72003070899973,29.72003070899973,29.72003070899973,29.72003070899973,29.72003070899973,30.72049504200004,30.72049504200004,z,1,0.6237066240000786,203534,001,2022-09-30_11h59.33.809,lab tut 4,2022.2.4,60.131613067922224,
-50.0,x,2,0,8,0,,,,,31.370524709000165,32.353600749999714,32.353600749999714,32.353600749999714,32.353600749999714,32.37013300000035,33.35348154199983,33.35348154199983,c,0,0.6190297069997541,203534,001,2022-09-30_11h59.33.809,lab tut 4,2022.2.4,60.131613067922224,
150.0,v,2,1,9,1,,,,,34.00380116700035,35.0039795419998,35.0039795419998,35.0039795419998,35.0039795419998,35.0039795419998,36.00553899999977,36.00553899999977,v,1,0.6256787909997001,203534,001,2022-09-30_11h59.33.809,lab tut 4,2022.2.4,60.131613067922224,
50.0,c,2,2,10,2,,,,,36.65397312500045,37.63776820899966,37.63776820899966,37.63776820899966,37.63776820899966,37.6542276250002,38.65440370899978,38.65440370899978,c,1,0.9142454989996622,203534,001,2022-09-30_11h59.33.809,lab tut 4,2022.2.4,60.131613067922224,
-150.0,z,2,3,11,3,,,,,39.587204583999664,40.58691437499965,40.58691437499965,40.58691437499965,40.58691437499965,40.58691437499965,41.58679379200021,41.58679379200021,z,1,0.796869499999957,203534,001,2022-09-30_11h59.33.809,lab tut 4,2022.2.4,60.131613067922224,
-50.0,x,3,0,12,0,,,,,42.40361908399973,43.40299520900044,43.40299520900044,43.40299520900044,43.40299520900044,43.40299520900044,44.40344729200024,44.40344729200024,x,1,0.7850942080003733,203534,001,2022-09-30_11h59.33.809,lab tut 4,2022.2.4,60.131613067922224,
150.0,v,3,1,13,1,,,,,45.220537834000424,46.22081200000048,46.22081200000048,46.22081200000048,46.22081200000048,46.22081200000048,47.20407416699982,47.20407416699982,v,1,1.0601919999999154,203534,001,2022-09-30_11h59.33.809,lab tut 4,2022.2.4,60.131613067922224,
50.0,c,3,2,14,2,,,,,48.287711292000495,49.287618584000484,49.287618584000484,49.287618584000484,49.287618584000484,49.287618584000484,50.28742629200042,50.28742629200042,c,1,0.7736418320000666,203534,001,2022-09-30_11h59.33.809,lab tut 4,2022.2.4,60.131613067922224,
-150.0,z,3,3,15,3,,,,,51.087720999999874,52.08769341700008,52.08769341700008,52.08769341700008,52.08769341700008,52.08769341700008,53.08745912500035,53.08745912500035,z,1,0.8884075829992071,203534,001,2022-09-30_11h59.33.809,lab tut 4,2022.2.4,60.131613067922224,
-50.0,x,4,0,16,0,,,,,54.004114334000406,55.00398979199963,55.00398979199963,55.00398979199963,55.00398979199963,55.00398979199963,55.98770387500008,55.98770387500008,x,1,0.6576419159991929,203534,001,2022-09-30_11h59.33.809,lab tut 4,2022.2.4,60.131613067922224,
150.0,v,4,1,17,1,,,,,56.67090783399999,57.67082241699973,57.67082241699973,57.67082241699973,57.67082241699973,57.67082241699973,58.67145325000001,58.67145325000001,v,1,0.5991122079994966,203534,001,2022-09-30_11h59.33.809,lab tut 4,2022.2.4,60.131613067922224,
50.0,c,4,2,18,2,,,,,59.28813012499995,60.288223249999646,60.288223249999646,60.288223249999646,60.288223249999646,60.288223249999646,61.28794025000025,61.28794025000025,c,1,0.8530077489995165,203534,001,2022-09-30_11h59.33.809,lab tut 4,2022.2.4,60.131613067922224,
-150.0,z,4,3,19,3,,,,,62.17091845899995,63.17135679199964,63.17135679199964,63.17135679199964,63.17135679199964,63.17135679199964,64.17085533400041,64.17085533400041,z,1,0.8586324580001019,203534,001,2022-09-30_11h59.33.809,lab tut 4,2022.2.4,60.131613067922224,
-50.0,x,5,0,20,0,,,,,65.05422954200003,66.05413412500002,66.05413412500002,66.05413412500002,66.05413412500002,66.05413412500002,67.0539046670001,67.0539046670001,x,1,0.7580538329993942,203534,001,2022-09-30_11h59.33.809,lab tut 4,2022.2.4,60.131613067922224,
150.0,v,5,1,21,1,,,,,67.8372228750004,68.83794462500009,68.83794462500009,68.83794462500009,68.83794462500009,68.83794462500009,69.83749524999985,69.83749524999985,v,1,0.6816583749996425,203534,001,2022-09-30_11h59.33.809,lab tut 4,2022.2.4,60.131613067922224,
50.0,c,5,2,22,2,,,,,70.53796074999991,71.53714270900036,71.53714270900036,71.53714270900036,71.53714270900036,71.53714270900036,72.53690666700004,72.53690666700004,c,1,0.7318264569994426,203534,001,2022-09-30_11h59.33.809,lab tut 4,2022.2.4,60.131613067922224,
-150.0,z,5,3,23,3,,,,,73.28741999999966,74.28745204200004,74.28745204200004,74.28745204200004,74.28745204200004,74.28745204200004,75.28768124999988,75.28768124999988,z,1,0.7580804999997781,203534,001,2022-09-30_11h59.33.809,lab tut 4,2022.2.4,60.131613067922224,
-50.0,x,6,0,24,0,,,,,76.0705632500003,77.07112649999999,77.07112649999999,77.07112649999999,77.07112649999999,77.07112649999999,78.07085000000006,78.07085000000006,x,1,1.2337252910001553,203534,001,2022-09-30_11h59.33.809,lab tut 4,2022.2.4,60.131613067922224,
150.0,v,6,1,25,1,,,,,79.33742666699982,80.33771041700038,80.33771041700038,80.33771041700038,80.33771041700038,80.33771041700038,81.33762162499988,81.33762162499988,v,1,1.1334340409994184,203534,001,2022-09-30_11h59.33.809,lab tut 4,2022.2.4,60.131613067922224,
50.0,c,6,2,26,2,,,,,82.48812262499996,83.48738858399975,83.48738858399975,83.48738858399975,83.48738858399975,83.48738858399975,84.48742641700028,84.48742641700028,c,1,0.7383172909994755,203534,001,2022-09-30_11h59.33.809,lab tut 4,2022.2.4,60.131613067922224,
-150.0,z,6,3,27,3,,,,,85.2550019170003,86.25441887499983,86.25441887499983,86.25441887499983,86.25441887499983,86.25441887499983,87.25422841700038,87.25422841700038,z,1,0.5297500830001809,203534,001,2022-09-30_11h59.33.809,lab tut 4,2022.2.4,60.131613067922224,
-50.0,x,7,0,28,0,,,,,87.80448433400034,88.8041124170004,88.8041124170004,88.8041124170004,88.8041124170004,88.8041124170004,89.80409487500037,89.80409487500037,x,1,0.5554095829993457,203534,001,2022-09-30_11h59.33.809,lab tut 4,2022.2.4,60.131613067922224,
150.0,v,7,1,29,1,,,,,90.38777512500019,91.38762124999994,91.38762124999994,91.38762124999994,91.38762124999994,91.38762124999994,92.38792820900017,92.38792820900017,v,1,0.7232684159998826,203534,001,2022-09-30_11h59.33.809,lab tut 4,2022.2.4,60.131613067922224,
50.0,c,7,2,30,2,,,,,93.13836858400009,94.13831841699994,94.13831841699994,94.13831841699994,94.13831841699994,94.13831841699994,95.13792420899972,95.13792420899972,c,1,0.6547695409999506,203534,001,2022-09-30_11h59.33.809,lab tut 4,2022.2.4,60.131613067922224,
-150.0,z,7,3,31,3,,,,,95.82102995900004,96.82192108399977,96.82192108399977,96.82192108399977,96.82192108399977,96.82192108399977,97.8209481670001,97.8209481670001,z,1,0.27926095799921313,203534,001,2022-09-30_11h59.33.809,lab tut 4,2022.2.4,60.131613067922224,
-50.0,x,8,0,32,0,,,,,98.12114291699982,99.12092525000025,99.12092525000025,99.12092525000025,99.12092525000025,99.12092525000025,100.12087420900025,100.12087420900025,x,1,0.5501174999999421,203534,001,2022-09-30_11h59.33.809,lab tut 4,2022.2.4,60.131613067922224,
150.0,v,8,1,33,1,,,,,100.6882158340004,101.68774475000009,101.68774475000009,101.68774475000009,101.68774475000009,101.68774475000009,102.68792874999963,102.68792874999963,v,1,0.6498613739995562,203534,001,2022-09-30_11h59.33.809,lab tut 4,2022.2.4,60.131613067922224,
50.0,c,8,2,34,2,,,,,103.35484862500016,104.3542566670003,104.3542566670003,104.3542566670003,104.3542566670003,104.3542566670003,105.35500558399963,105.35500558399963,c,1,0.4785740830002396,203534,001,2022-09-30_11h59.33.809,lab tut 4,2022.2.4,60.131613067922224,
-150.0,z,8,3,35,3,,,,,105.85512850000032,106.85463824999988,106.85463824999988,106.85463824999988,106.85463824999988,106.85463824999988,107.85451487499995,107.85451487499995,z,1,0.4446959570004765,203534,001,2022-09-30_11h59.33.809,lab tut 4,2022.2.4,60.131613067922224,
-50.0,x,9,0,36,0,,,,,108.32117445899985,109.32161066699973,109.32161066699973,109.32161066699973,109.32161066699973,109.32161066699973,110.32141308399969,110.32141308399969,x,1,0.48791904100016836,203534,001,2022-09-30_11h59.33.809,lab tut 4,2022.2.4,60.131613067922224,
150.0,v,9,1,37,1,,,,,110.83781241700035,111.83817224999984,111.83817224999984,111.83817224999984,111.83817224999984,111.83817224999984,112.83762012500029,112.83762012500029,v,1,0.45547987500049203,203534,001,2022-09-30_11h59.33.809,lab tut 4,2022.2.4,60.131613067922224,
50.0,c,9,2,38,2,,,,,113.32104112500019,114.32135262500015,114.32135262500015,114.32135262500015,114.32135262500015,114.32135262500015,115.3216081669998,115.3216081669998,c,1,0.4505699579995053,203534,001,2022-09-30_11h59.33.809,lab tut 4,2022.2.4,60.131613067922224,
-150.0,z,9,3,39,3,,,,,115.80483508399993,116.80444683400037,116.80444683400037,116.80444683400037,116.80444683400037,116.80444683400037,117.80451870900015,117.80451870900015,z,1,0.4795573319997857,203534,001,2022-09-30_11h59.33.809,lab tut 4,2022.2.4,60.131613067922224,
-50.0,x,10,0,40,0,,,,,118.30470283399973,119.30445854200025,119.30445854200025,119.30445854200025,119.30445854200025,119.30445854200025,120.30470304200026,120.30470304200026,x,1,0.35780391600019357,203534,001,2022-09-30_11h59.33.809,lab tut 4,2022.2.4,60.131613067922224,
150.0,v,10,1,41,1,,,,,120.68814112499967,121.68847129200003,121.68847129200003,121.68847129200003,121.68847129200003,121.68847129200003,122.68770337499973,122.68770337499973,v,1,0.4380387499995777,203534,001,2022-09-30_11h59.33.809,lab tut 4,2022.2.4,60.131613067922224,
50.0,c,10,2,42,2,,,,,123.15457391699965,124.15485220899973,124.15485220899973,124.15485220899973,124.15485220899973,124.15485220899973,125.15505795900026,125.15505795900026,c,1,0.5682501659994159,203534,001,2022-09-30_11h59.33.809,lab tut 4,2022.2.4,60.131613067922224,
-150.0,z,10,3,43,3,,,,,125.75465762499971,126.75452124999993,126.75452124999993,126.75452124999993,126.75452124999993,126.75452124999993,127.75508020899997,127.75508020899997,z,1,0.4182667909999509,203534,001,2022-09-30_11h59.33.809,lab tut 4,2022.2.4,60.131613067922224,
-50.0,x,11,0,44,0,,,,,128.20425208400047,129.2047292090001,129.2047292090001,129.2047292090001,129.2047292090001,129.2047292090001,130.20535179200033,130.20535179200033,x,1,0.3520638740001232,203534,001,2022-09-30_11h59.33.809,lab tut 4,2022.2.4,60.131613067922224,
150.0,v,11,1,45,1,,,,,130.58818116699968,131.58782662500016,131.58782662500016,131.58782662500016,131.58782662500016,131.58782662500016,132.58764995900037,132.58764995900037,v,1,0.47890724900025816,203534,001,2022-09-30_11h59.33.809,lab tut 4,2022.2.4,60.131613067922224,
50.0,c,11,2,46,2,,,,,133.08823937499983,134.08798804199978,134.08798804199978,134.08798804199978,134.08798804199978,134.08798804199978,135.08822183400025,135.08822183400025,c,1,0.49187945799985755,203534,001,2022-09-30_11h59.33.809,lab tut 4,2022.2.4,60.131613067922224,
-150.0,z,11,3,47,3,,,,,135.60499420900032,136.60459837500002,136.60459837500002,136.60459837500002,136.60459837500002,136.60459837500002,137.6050829169999,137.6050829169999,z,1,0.39794350000011036,203534,001,2022-09-30_11h59.33.809,lab tut 4,2022.2.4,60.131613067922224,
-50.0,x,12,0,48,0,,,,,138.0216779170005,139.0216473749997,139.0216473749997,139.0216473749997,139.0216473749997,139.0216473749997,140.02173408399995,140.02173408399995,x,1,0.4328839989993867,203534,001,2022-09-30_11h59.33.809,lab tut 4,2022.2.4,60.131613067922224,
150.0,v,12,1,49,1,,,,,140.47184233400003,141.45576700000038,141.45576700000038,141.45576700000038,141.45576700000038,141.47222683400014,142.47182383400013,142.47182383400013,v,1,0.4291773329996431,203534,001,2022-09-30_11h59.33.809,lab tut 4,2022.2.4,60.131613067922224,
50.0,c,12,2,50,2,,,,,142.92193570899963,143.9219466249997,143.9219466249997,143.9219466249997,143.9219466249997,143.9219466249997,144.92185487500046,144.92185487500046,c,1,0.36773008199998003,203534,001,2022-09-30_11h59.33.809,lab tut 4,2022.2.4,60.131613067922224,
-150.0,z,12,3,51,3,,,,,145.30485166699964,146.30532308400052,146.30532308400052,146.30532308400052,146.30532308400052,146.30532308400052,147.30578691699975,147.30578691699975,z,1,0.2802045830003408,203534,001,2022-09-30_11h59.33.809,lab tut 4,2022.2.4,60.131613067922224,
-50.0,x,13,0,52,0,,,,,147.60505658400052,148.60477600000013,148.60477600000013,148.60477600000013,148.60477600000013,148.60477600000013,149.60515283400036,149.60515283400036,x,1,0.3153603740001927,203534,001,2022-09-30_11h59.33.809,lab tut 4,2022.2.4,60.131613067922224,
150.0,v,13,1,53,1,,,,,149.93864379200022,150.93813441699967,150.93813441699967,150.93813441699967,150.93813441699967,150.93813441699967,151.93854054199983,151.93854054199983,v,1,0.3352517489993261,203534,001,2022-09-30_11h59.33.809,lab tut 4,2022.2.4,60.131613067922224,
50.0,c,13,2,54,2,,,,,152.30497958399974,153.30548979200012,153.30548979200012,153.30548979200012,153.30548979200012,153.30548979200012,154.30510162500013,154.30510162500013,c,1,0.4922071249993678,203534,001,2022-09-30_11h59.33.809,lab tut 4,2022.2.4,60.131613067922224,
-150.0,z,13,3,55,3,,,,,154.8295961670001,155.8217985000001,155.8217985000001,155.8217985000001,155.8217985000001,155.83832066700052,156.82197854199967,156.82197854199967,z,1,0.30524045699985436,203534,001,2022-09-30_11h59.33.809,lab tut 4,2022.2.4,60.131613067922224,
-50.0,x,14,0,56,0,,,,,157.1550402920002,158.15542766700037,158.15542766700037,158.15542766700037,158.15542766700037,158.15542766700037,159.1551550840004,159.1551550840004,x,1,0.2757160409992139,203534,001,2022-09-30_11h59.33.809,lab tut 4,2022.2.4,60.131613067922224,
150.0,v,14,1,57,1,,,,,159.45521025000016,160.43895725000039,160.43895725000039,160.43895725000039,160.43895725000039,160.45489320900015,161.45531954200032,161.45531954200032,v,1,0.3243702909994681,203534,001,2022-09-30_11h59.33.809,lab tut 4,2022.2.4,60.131613067922224,
50.0,c,14,2,58,2,,,,,161.80563574999996,162.80571854200025,162.80571854200025,162.80571854200025,162.80571854200025,162.80571854200025,163.805966334,163.805966334,c,1,0.35316787400006433,203534,001,2022-09-30_11h59.33.809,lab tut 4,2022.2.4,60.131613067922224,
-150.0,z,14,3,59,3,,,,,164.18878266699994,165.18850062500042,165.18850062500042,165.18850062500042,165.18850062500042,165.18850062500042,166.1881762920002,166.1881762920002,z,1,0.2896001660001275,203534,001,2022-09-30_11h59.33.809,lab tut 4,2022.2.4,60.131613067922224,
-50.0,x,15,0,60,0,,,,,166.50518116700005,167.50521729200045,167.50521729200045,167.50521729200045,167.50521729200045,167.50521729200045,168.50572312500026,168.50572312500026,x,1,0.29979412500051694,203534,001,2022-09-30_11h59.33.809,lab tut 4,2022.2.4,60.131613067922224,
150.0,v,15,1,61,1,,,,,168.82203304199993,169.82189483399998,169.82189483399998,169.82189483399998,169.82189483399998,169.82189483399998,170.82192804199985,170.82192804199985,v,1,0.29895870800010016,203534,001,2022-09-30_11h59.33.809,lab tut 4,2022.2.4,60.131613067922224,
50.0,c,15,2,62,2,,,,,171.13952091700048,172.13901345900013,172.13901345900013,172.13901345900013,172.13901345900013,172.13901345900013,173.1389189170004,173.1389189170004,c,1,0.29391279100036627,203534,001,2022-09-30_11h59.33.809,lab tut 4,2022.2.4,60.131613067922224,
-150.0,z,15,3,63,3,,,,,173.4554545000001,174.45531787500022,174.45531787500022,174.45531787500022,174.45531787500022,174.45531787500022,175.45599649999986,175.45599649999986,z,1,0.2910648319993925,203534,001,2022-09-30_11h59.33.809,lab tut 4,2022.2.4,60.131613067922224,
-50.0,x,16,0,64,0,,,,,175.77230583399978,176.77244716699988,176.77244716699988,176.77244716699988,176.77244716699988,176.77244716699988,177.7720790000003,177.7720790000003,x,1,0.15770341600000393,203534,001,2022-09-30_11h59.33.809,lab tut 4,2022.2.4,60.131613067922224,
150.0,v,16,1,65,1,,,,,177.9553936250004,178.9557621670001,178.9557621670001,178.9557621670001,178.9557621670001,178.9557621670001,179.95626491700023,179.95626491700023,v,1,0.33152654100013024,203534,001,2022-09-30_11h59.33.809,lab tut 4,2022.2.4,60.131613067922224,
50.0,c,16,2,66,2,,,,,180.30560695900022,181.306097959,181.306097959,181.306097959,181.306097959,181.306097959,182.30566158400052,182.30566158400052,c,1,0.2002904999999373,203534,001,2022-09-30_11h59.33.809,lab tut 4,2022.2.4,60.131613067922224,
-150.0,z,16,3,67,3,,,,,182.52244433400028,183.52224133399977,183.52224133399977,183.52224133399977,183.52224133399977,183.52224133399977,184.5222262090001,184.5222262090001,z,1,0.3124707910001234,203534,001,2022-09-30_11h59.33.809,lab tut 4,2022.2.4,60.131613067922224,
-50.0,x,17,0,68,0,,,,,184.85633958400012,185.85571629199967,185.85571629199967,185.85571629199967,185.85571629199967,185.85571629199967,186.85593941699972,186.85593941699972,x,1,0.25700716599931184,203534,001,2022-09-30_11h59.33.809,lab tut 4,2022.2.4,60.131613067922224,
150.0,v,17,1,69,1,,,,,187.1390967919997,188.1389638339997,188.1389638339997,188.1389638339997,188.1389638339997,188.1389638339997,189.13892766699973,189.13892766699973,v,1,0.3174884580002981,203534,001,2022-09-30_11h59.33.809,lab tut 4,2022.2.4,60.131613067922224,
50.0,c,17,2,70,2,,,,,189.48933729200053,190.4894675000005,190.4894675000005,190.4894675000005,190.4894675000005,190.4894675000005,191.48896541700014,191.48896541700014,c,1,0.31592383299994253,203534,001,2022-09-30_11h59.33.809,lab tut 4,2022.2.4,60.131613067922224,
-150.0,z,17,3,71,3,,,,,191.82247287500013,192.8228980419999,192.8228980419999,192.8228980419999,192.8228980419999,192.8228980419999,193.8225058750004,193.8225058750004,z,1,0.49515245800012053,203534,001,2022-09-30_11h59.33.809,lab tut 4,2022.2.4,60.131613067922224,
-50.0,x,18,0,72,0,,,,,194.33949320900047,195.33942791699974,195.33942791699974,195.33942791699974,195.33942791699974,195.33942791699974,196.3392122920004,196.3392122920004,x,1,0.2720755000000281,203534,001,2022-09-30_11h59.33.809,lab tut 4,2022.2.4,60.131613067922224,
150.0,v,18,1,73,1,,,,,196.6391488750005,197.63919329200053,197.63919329200053,197.63919329200053,197.63919329200053,197.63919329200053,198.6393518750001,198.6393518750001,v,1,0.31029383299937763,203534,001,2022-09-30_11h59.33.809,lab tut 4,2022.2.4,60.131613067922224,
50.0,c,18,2,74,2,,,,,198.97239216700018,199.97332604199983,199.97332604199983,199.97332604199983,199.97332604199983,199.97332604199983,200.97273479199976,200.97273479199976,c,1,0.038850165999974706,203534,001,2022-09-30_11h59.33.809,lab tut 4,2022.2.4,60.131613067922224,
-150.0,z,18,3,75,3,,,,,201.03927633399962,202.03933045899976,202.03933045899976,202.03933045899976,202.03933045899976,202.03933045899976,203.0393414170003,203.0393414170003,z,1,0.32855695799935347,203534,001,2022-09-30_11h59.33.809,lab tut 4,2022.2.4,60.131613067922224,
-50.0,x,19,0,76,0,,,,,203.38946054200005,204.38908795899988,204.38908795899988,204.38908795899988,204.38908795899988,204.38908795899988,205.38946595900052,205.38946595900052,x,1,0.3007539989994257,203534,001,2022-09-30_11h59.33.809,lab tut 4,2022.2.4,60.131613067922224,
150.0,v,19,1,77,1,,,,,205.72257462499965,206.7228270000005,206.7228270000005,206.7228270000005,206.7228270000005,206.7228270000005,207.72288829199988,207.72288829199988,v,1,0.2836574160000964,203534,001,2022-09-30_11h59.33.809,lab tut 4,2022.2.4,60.131613067922224,
50.0,c,19,2,78,2,,,,,208.02279974999965,209.02290179200008,209.02290179200008,209.02290179200008,209.02290179200008,209.02290179200008,210.02284387500004,210.02284387500004,c,1,0.31528262400024687,203534,001,2022-09-30_11h59.33.809,lab tut 4,2022.2.4,60.131613067922224,
-150.0,z,19,3,79,3,,,,,210.35675404199992,211.35633299999972,211.35633299999972,211.35633299999972,211.35633299999972,211.35633299999972,212.35603637500026,212.35603637500026,z,1,0.2989517079995494,203534,001,2022-09-30_11h59.33.809,lab tut 4,2022.2.4,60.131613067922224,
-50.0,x,20,0,80,0,,,,,212.673117542,213.67340179199982,213.67340179199982,213.67340179199982,213.67340179199982,213.67340179199982,214.67285937500037,214.67285937500037,x,1,0.23345054099991103,203534,001,2022-09-30_11h59.33.809,lab tut 4,2022.2.4,60.131613067922224,
150.0,v,20,1,81,1,,,,,214.92310495899983,215.92352208400007,215.92352208400007,215.92352208400007,215.92352208400007,215.92352208400007,216.92242433400043,216.92242433400043,v,1,0.30745954099984374,203534,001,2022-09-30_11h59.33.809,lab tut 4,2022.2.4,60.131613067922224,
50.0,c,20,2,82,2,,,,,217.25649016700027,218.25591529200028,218.25591529200028,218.25591529200028,218.25591529200028,218.25591529200028,219.25633137499972,219.25633137499972,c,1,0.2628314160001537,203534,001,2022-09-30_11h59.33.809,lab tut 4,2022.2.4,60.131613067922224,
-150.0,z,20,3,83,3,,,,,219.53994750000038,220.5235070839999,220.5235070839999,220.5235070839999,220.5235070839999,220.5399820419998,221.52275391700005,221.52275391700005,z,1,0.34520229100053257,203534,001,2022-09-30_11h59.33.809,lab tut 4,2022.2.4,60.131613067922224,
-50.0,x,21,0,84,0,,,,,221.88989841700004,222.89011712499996,222.89011712499996,222.89011712499996,222.89011712499996,222.89011712499996,223.8895268340002,223.8895268340002,x,1,0.27851870699942083,203534,001,2022-09-30_11h59.33.809,lab tut 4,2022.2.4,60.131613067922224,
150.0,v,21,1,85,1,,,,,224.189653292,225.19004029200005,225.19004029200005,225.19004029200005,225.19004029200005,225.19004029200005,226.17335062500024,226.17335062500024,v,1,0.28785237499960203,203534,001,2022-09-30_11h59.33.809,lab tut 4,2022.2.4,60.131613067922224,
50.0,c,21,2,86,2,,,,,226.48979962500016,227.48975441699986,227.48975441699986,227.48975441699986,227.48975441699986,227.48975441699986,228.4899637919998,228.4899637919998,c,1,0.05354779099980078,203534,001,2022-09-30_11h59.33.809,lab tut 4,2022.2.4,60.131613067922224,
-150.0,z,21,3,87,3,,,,,228.57283795900003,229.57291175000046,229.57291175000046,229.57291175000046,229.57291175000046,229.57291175000046,230.57307304200003,230.57307304200003,z,1,0.2681084579999151,203534,001,2022-09-30_11h59.33.809,lab tut 4,2022.2.4,60.131613067922224,
-50.0,x,22,0,88,0,,,,,230.87308154200036,231.87359208399994,231.87359208399994,231.87359208399994,231.87359208399994,231.87359208399994,232.87366350000048,232.87366350000048,x,1,0.31988533300045674,203534,001,2022-09-30_11h59.33.809,lab tut 4,2022.2.4,60.131613067922224,
150.0,v,22,1,89,1,,,,,233.22334679200048,234.2232493749998,234.2232493749998,234.2232493749998,234.2232493749998,234.2232493749998,235.22368616699987,235.22368616699987,v,1,0.2777447079997728,203534,001,2022-09-30_11h59.33.809,lab tut 4,2022.2.4,60.131613067922224,
50.0,c,22,2,90,2,,,,,235.52335391700035,236.52266375,236.52266375,236.52266375,236.52266375,236.52266375,237.52387370900033,237.52387370900033,c,1,0.24113404099989566,203534,001,2022-09-30_11h59.33.809,lab tut 4,2022.2.4,60.131613067922224,
-150.0,z,22,3,91,3,,,,,237.78964050000013,238.7899865420004,238.7899865420004,238.7899865420004,238.7899865420004,238.7899865420004,239.789606542,239.789606542,z,1,0.3237991249998231,203534,001,2022-09-30_11h59.33.809,lab tut 4,2022.2.4,60.131613067922224,
-50.0,x,23,0,92,0,,,,,240.13958979200015,241.1398854170002,241.1398854170002,241.1398854170002,241.1398854170002,241.1398854170002,242.140247542,242.140247542,x,1,0.006171206999169954,203534,001,2022-09-30_11h59.33.809,lab tut 4,2022.2.4,60.131613067922224,
150.0,v,23,1,93,1,,,,,242.1728089999997,243.17373362499984,243.17373362499984,243.17373362499984,243.17373362499984,243.17373362499984,244.1734248749999,244.1734248749999,v,1,0.04163449899988336,203534,001,2022-09-30_11h59.33.809,lab tut 4,2022.2.4,60.131613067922224,
50.0,c,23,2,94,2,,,,,244.240152417,245.24059141700036,245.24059141700036,245.24059141700036,245.24059141700036,245.24059141700036,246.24014950000037,246.24014950000037,c,1,0.2830060410005899,203534,001,2022-09-30_11h59.33.809,lab tut 4,2022.2.4,60.131613067922224,
-150.0,z,23,3,95,3,,,,,246.54045000000042,247.53996533400004,247.53996533400004,247.53996533400004,247.53996533400004,247.53996533400004,248.53957016700042,248.53957016700042,z,1,0.17824099999961618,203534,001,2022-09-30_11h59.33.809,lab tut 4,2022.2.4,60.131613067922224,
50.0,c,,,,,0,0,0,2,248.74667933399996,249.74044462500024,249.74044462500024,249.74044462500024,249.74044462500024,249.7572444590005,250.74053749999985,250.74053749999985,x,0,0.24485395800002152,203534,001,2022-09-30_11h59.33.809,lab tut 4,2022.2.4,60.131613067922224,
150.0,v,,,,,0,1,1,1,251.0069922089997,252.00736779199997,252.00736779199997,252.00736779199997,252.00736779199997,252.00736779199997,253.00685066700044,253.00685066700044,v,1,0.5336281659992892,203534,001,2022-09-30_11h59.33.809,lab tut 4,2022.2.4,60.131613067922224,
-50.0,x,,,,,0,2,2,0,253.57333554199977,254.57328508400042,254.57328508400042,254.57328508400042,254.57328508400042,254.57328508400042,255.57392566700037,255.57392566700037,x,1,0.4646289579995937,203534,001,2022-09-30_11h59.33.809,lab tut 4,2022.2.4,60.131613067922224,
-150.0,z,,,,,0,3,3,3,256.05696575,257.0567061669999,257.0567061669999,257.0567061669999,257.0567061669999,257.0567061669999,258.05701983400013,258.05701983400013,z,1,0.4556545819996245,203534,001,2022-09-30_11h59.33.809,lab tut 4,2022.2.4,60.131613067922224,
150.0,v,,,,,1,0,4,1,258.53972941699976,259.54023979199974,259.54023979199974,259.54023979199974,259.54023979199974,259.54023979199974,260.54057308400024,260.54057308400024,v,1,0.7577832489996581,203534,001,2022-09-30_11h59.33.809,lab tut 4,2022.2.4,60.131613067922224,
50.0,c,,,,,1,1,5,2,261.3229264170004,262.32396574999984,262.32396574999984,262.32396574999984,262.32396574999984,262.32396574999984,263.3234430000002,263.3234430000002,c,1,0.5477206659998046,203534,001,2022-09-30_11h59.33.809,lab tut 4,2022.2.4,60.131613067922224,
-150.0,z,,,,,1,2,6,3,263.890240875,264.88993674999983,264.88993674999983,264.88993674999983,264.88993674999983,264.88993674999983,265.8905131669999,265.8905131669999,z,1,0.6320224999999482,203534,001,2022-09-30_11h59.33.809,lab tut 4,2022.2.4,60.131613067922224,
-50.0,x,,,,,1,3,7,0,266.54078620899963,267.5406269169998,267.5406269169998,267.5406269169998,267.5406269169998,267.5406269169998,268.54015204200005,268.54015204200005,x,1,0.47689333299967984,203534,001,2022-09-30_11h59.33.809,lab tut 4,2022.2.4,60.131613067922224,
50.0,c,,,,,2,0,8,2,269.04017495900007,270.0401625000004,270.0401625000004,270.0401625000004,270.0401625000004,270.0401625000004,271.03987979199974,271.03987979199974,c,1,0.5033450829996582,203534,001,2022-09-30_11h59.33.809,lab tut 4,2022.2.4,60.131613067922224,
-150.0,z,,,,,2,1,9,3,271.5734801670005,272.5737416669999,272.5737416669999,272.5737416669999,272.5737416669999,272.5737416669999,273.5742171669999,273.5742171669999,z,1,0.9947154989995397,203534,001,2022-09-30_11h59.33.809,lab tut 4,2022.2.4,60.131613067922224,
150.0,v,,,,,2,2,10,1,274.59093462500005,275.5904931670002,275.5904931670002,275.5904931670002,275.5904931670002,275.6068881250003,276.59025733399994,276.59025733399994,v,1,0.468363416000102,203534,001,2022-09-30_11h59.33.809,lab tut 4,2022.2.4,60.131613067922224,
-50.0,x,,,,,2,3,11,0,277.0901884590003,278.09072916700006,278.09072916700006,278.09072916700006,278.09072916700006,278.09072916700006,279.09021841699996,279.09021841699996,x,1,0.8601659989999462,203534,001,2022-09-30_11h59.33.809,lab tut 4,2022.2.4,60.131613067922224,
-50.0,x,,,,,3,0,12,0,279.9737381249997,280.9734937920002,280.9734937920002,280.9734937920002,280.9734937920002,280.9734937920002,281.97412841700043,281.97412841700043,x,1,0.49237479100065684,203534,001,2022-09-30_11h59.33.809,lab tut 4,2022.2.4,60.131613067922224,
50.0,c,,,,,3,1,13,2,282.4903980420004,283.49042533400007,283.49042533400007,283.49042533400007,283.49042533400007,283.49042533400007,284.4907427090002,284.4907427090002,c,1,0.3594159579997722,203534,001,2022-09-30_11h59.33.809,lab tut 4,2022.2.4,60.131613067922224,
-150.0,z,,,,,3,2,14,3,284.8734709999999,285.8738682920002,285.8738682920002,285.8738682920002,285.8738682920002,285.8738682920002,286.873893084,286.873893084,z,1,0.5907591239993053,203534,001,2022-09-30_11h59.33.809,lab tut 4,2022.2.4,60.131613067922224,
150.0,v,,,,,3,3,15,1,287.4908107500005,288.4910006250002,288.4910006250002,288.4910006250002,288.4910006250002,288.4910006250002,289.4903493339998,289.4903493339998,v,1,0.7317617909993714,203534,001,2022-09-30_11h59.33.809,lab tut 4,2022.2.4,60.131613067922224,
50.0,c,,,,,4,0,16,2,290.2407343340001,291.2414119169998,291.2414119169998,291.2414119169998,291.2414119169998,291.2414119169998,292.2404964590005,292.2404964590005,c,1,0.8651204990001133,203534,001,2022-09-30_11h59.33.809,lab tut 4,2022.2.4,60.131613067922224,
150.0,v,,,,,4,1,17,1,293.1241847500005,294.12422566700025,294.12422566700025,294.12422566700025,294.12422566700025,294.12422566700025,295.124435834,295.124435834,v,1,0.7041463739997198,203534,001,2022-09-30_11h59.33.809,lab tut 4,2022.2.4,60.131613067922224,
-50.0,x,,,,,4,2,18,0,295.8570252919999,296.85720500000025,296.85720500000025,296.85720500000025,296.85720500000025,296.85720500000025,297.85740474999966,297.85740474999966,x,1,0.595192791000045,203534,001,2022-09-30_11h59.33.809,lab tut 4,2022.2.4,60.131613067922224,
-150.0,z,,,,,4,3,19,3,298.47415891699984,299.4746937919999,299.4746937919999,299.4746937919999,299.4746937919999,299.4746937919999,300.4738271670003,300.4738271670003,z,1,0.623918999000125,203534,001,2022-09-30_11h59.33.809,lab tut 4,2022.2.4,60.131613067922224,
50.0,c,,,,,5,0,20,2,301.12423412499993,302.124109417,302.124109417,302.124109417,302.124109417,302.124109417,303.1239080000005,303.1239080000005,c,1,0.5024693739997019,203534,001,2022-09-30_11h59.33.809,lab tut 4,2022.2.4,60.131613067922224,
-50.0,x,,,,,5,1,21,0,303.65695841700017,304.6577520840001,304.6577520840001,304.6577520840001,304.6577520840001,304.6577520840001,305.6573314590005,305.6573314590005,x,1,0.42599945799975103,203534,001,2022-09-30_11h59.33.809,lab tut 4,2022.2.4,60.131613067922224,
-150.0,z,,,,,5,2,22,3,306.106848292,307.10740824999993,307.10740824999993,307.10740824999993,307.10740824999993,307.10740824999993,308.09160279200023,308.09160279200023,z,1,0.5728117909993671,203534,001,2022-09-30_11h59.33.809,lab tut 4,2022.2.4,60.131613067922224,
150.0,v,,,,,5,3,23,1,308.6911575419999,309.69092462499975,309.69092462499975,309.69092462499975,309.69092462499975,309.69092462499975,310.6907549999996,310.6907549999996,v,1,0.9581344580001314,203534,001,2022-09-30_11h59.33.809,lab tut 4,2022.2.4,60.131613067922224,
-50.0,x,,,,,6,0,24,0,311.67401166699983,312.6740769170001,312.6740769170001,312.6740769170001,312.6740769170001,312.6740769170001,313.6738058339997,313.6738058339997,x,1,0.7487935409999409,203534,001,2022-09-30_11h59.33.809,lab tut 4,2022.2.4,60.131613067922224,
150.0,v,,,,,6,1,25,1,314.4411445420001,315.44078337500014,315.44078337500014,315.44078337500014,315.44078337500014,315.44078337500014,316.4408047090001,316.4408047090001,v,1,0.6146438329997181,203534,001,2022-09-30_11h59.33.809,lab tut 4,2022.2.4,60.131613067922224,
-150.0,z,,,,,6,2,26,3,317.07450487500046,318.0742851670002,318.0742851670002,318.0742851670002,318.0742851670002,318.0742851670002,319.07419387499976,319.07419387499976,z,1,0.6824772910003958,203534,001,2022-09-30_11h59.33.809,lab tut 4,2022.2.4,60.131613067922224,
50.0,c,,,,,6,3,27,2,319.7745070000001,320.77487674999975,320.77487674999975,320.77487674999975,320.77487674999975,320.77487674999975,321.7744996669999,321.7744996669999,c,1,0.795437748999575,203534,001,2022-09-30_11h59.33.809,lab tut 4,2022.2.4,60.131613067922224,
-150.0,z,,,,,7,0,28,3,322.59119708399976,323.5909987920004,323.5909987920004,323.5909987920004,323.5909987920004,323.5909987920004,324.59113108400015,324.59113108400015,z,1,0.453420998999718,203534,001,2022-09-30_11h59.33.809,lab tut 4,2022.2.4,60.131613067922224,
150.0,v,,,,,7,1,29,1,325.07431254200037,326.0742212089999,326.0742212089999,326.0742212089999,326.0742212089999,326.0742212089999,327.0738915419997,327.0738915419997,v,1,0.6683068319998711,203534,001,2022-09-30_11h59.33.809,lab tut 4,2022.2.4,60.131613067922224,
-50.0,x,,,,,7,2,30,0,327.7746872919997,328.7745895420003,328.7745895420003,328.7745895420003,328.7745895420003,328.7745895420003,329.7744313339999,329.7744313339999,x,1,0.8215272489997005,203534,001,2022-09-30_11h59.33.809,lab tut 4,2022.2.4,60.131613067922224,
50.0,c,,,,,7,3,31,2,330.6244511249997,331.6250220419997,331.6250220419997,331.6250220419997,331.6250220419997,331.6250220419997,332.62444824999966,332.62444824999966,c,1,0.353521998999895,203534,001,2022-09-30_11h59.33.809,lab tut 4,2022.2.4,60.131613067922224,
-150.0,z,,,,,8,0,32,3,333.00713150000047,334.00791000000027,334.00791000000027,334.00791000000027,334.00791000000027,334.00791000000027,335.0081374170004,335.0081374170004,z,1,0.7642784990002838,203534,001,2022-09-30_11h59.33.809,lab tut 4,2022.2.4,60.131613067922224,
-50.0,x,,,,,8,1,33,0,335.7918777920004,336.790595167,336.790595167,336.790595167,336.790595167,336.80766849999964,337.77520033400015,337.77520033400015,x,1,0.5982428320003237,203534,001,2022-09-30_11h59.33.809,lab tut 4,2022.2.4,60.131613067922224,
150.0,v,,,,,8,2,34,1,338.39193612500003,339.39170162499977,339.39170162499977,339.39170162499977,339.39170162499977,339.39170162499977,340.3912495000004,340.3912495000004,v,1,0.7465282079992903,203534,001,2022-09-30_11h59.33.809,lab tut 4,2022.2.4,60.131613067922224,
50.0,c,,,,,8,3,35,2,341.15813408400027,342.1574956249997,342.1574956249997,342.1574956249997,342.1574956249997,342.1574956249997,343.15776379199997,343.15776379199997,c,1,0.509020124000017,203534,001,2022-09-30_11h59.33.809,lab tut 4,2022.2.4,60.131613067922224,
150.0,v,,,,,9,0,36,1,343.69116391700027,344.69152275000033,344.69152275000033,344.69152275000033,344.69152275000033,344.69152275000033,345.6913199999999,345.6913199999999,v,1,0.7361705829998755,203534,001,2022-09-30_11h59.33.809,lab tut 4,2022.2.4,60.131613067922224,
-50.0,x,,,,,9,1,37,0,346.458070959,347.4577333750003,347.4577333750003,347.4577333750003,347.4577333750003,347.4577333750003,348.4582217090001,348.4582217090001,x,1,0.7524431239999103,203534,001,2022-09-30_11h59.33.809,lab tut 4,2022.2.4,60.131613067922224,
-150.0,z,,,,,9,2,38,3,349.24160816699987,350.2416827090001,350.2416827090001,350.2416827090001,350.2416827090001,350.2416827090001,351.24136429200007,351.24136429200007,z,1,0.5269118750002235,203534,001,2022-09-30_11h59.33.809,lab tut 4,2022.2.4,60.131613067922224,
50.0,c,,,,,9,3,39,2,351.79182445900005,352.7753979170002,352.7753979170002,352.7753979170002,352.7753979170002,352.7915138750004,353.79184658400027,353.79184658400027,c,1,0.6147345409999616,203534,001,2022-09-30_11h59.33.809,lab tut 4,2022.2.4,60.131613067922224,
-150.0,z,,,,,10,0,40,3,354.42498066700045,355.42465908400027,355.42465908400027,355.42465908400027,355.42465908400027,355.42465908400027,356.42483616699974,356.42483616699974,z,1,0.5655964989991844,203534,001,2022-09-30_11h59.33.809,lab tut 4,2022.2.4,60.131613067922224,
-50.0,x,,,,,10,1,41,0,357.0083924999999,358.00832524999987,358.00832524999987,358.00832524999987,358.00832524999987,358.00832524999987,359.0082757090004,359.0082757090004,x,1,0.8688419159998375,203534,001,2022-09-30_11h59.33.809,lab tut 4,2022.2.4,60.131613067922224,
50.0,c,,,,,10,2,42,2,359.9079591669997,360.9087413750003,360.9087413750003,360.9087413750003,360.9087413750003,360.9087413750003,361.9082423339996,361.9082423339996,c,1,0.6500558329998967,203534,001,2022-09-30_11h59.33.809,lab tut 4,2022.2.4,60.131613067922224,
150.0,v,,,,,10,3,43,1,362.575167084,363.57512908399985,363.57512908399985,363.57512908399985,363.57512908399985,363.57512908399985,364.5748389170003,364.5748389170003,v,1,0.7352498740001465,203534,001,2022-09-30_11h59.33.809,lab tut 4,2022.2.4,60.131613067922224,
-50.0,x,,,,,11,0,44,0,365.34175349999987,366.34173550000014,366.34173550000014,366.34173550000014,366.34173550000014,366.34173550000014,367.34154595899963,367.34154595899963,x,1,0.6654897910002546,203534,001,2022-09-30_11h59.33.809,lab tut 4,2022.2.4,60.131613067922224,
-150.0,z,,,,,11,1,45,3,368.0256722920003,369.02512087499963,369.02512087499963,369.02512087499963,369.02512087499963,369.02512087499963,370.0255622499999,370.0255622499999,z,1,0.7090857080002024,203534,001,2022-09-30_11h59.33.809,lab tut 4,2022.2.4,60.131613067922224,
50.0,c,,,,,11,2,46,2,370.75866645899987,371.7581909170003,371.7581909170003,371.7581909170003,371.7581909170003,371.7581909170003,372.75818400000026,372.75818400000026,c,1,0.5090838329997496,203534,001,2022-09-30_11h59.33.809,lab tut 4,2022.2.4,60.131613067922224,
150.0,v,,,,,11,3,47,1,373.29183575000025,374.29171916700034,374.29171916700034,374.29171916700034,374.29171916700034,374.29171916700034,375.29211908399975,375.29211908399975,v,1,0.5314780830003656,203534,001,2022-09-30_11h59.33.809,lab tut 4,2022.2.4,60.131613067922224,
-150.0,z,,,,,12,0,48,3,375.8422621669997,376.8417486670005,376.8417486670005,376.8417486670005,376.8417486670005,376.8417486670005,377.8419262919997,377.8419262919997,z,1,0.6043535819999306,203534,001,2022-09-30_11h59.33.809,lab tut 4,2022.2.4,60.131613067922224,
50.0,c,,,,,12,1,49,2,378.47505900000033,379.4752291670002,379.4752291670002,379.4752291670002,379.4752291670002,379.4752291670002,380.4751700839997,380.4751700839997,c,1,0.6957659159998002,203534,001,2022-09-30_11h59.33.809,lab tut 4,2022.2.4,60.131613067922224,
150.0,v,,,,,12,2,50,1,381.19238162500005,382.19177320900053,382.19177320900053,382.19177320900053,382.19177320900053,382.19177320900053,383.1919984169999,383.1919984169999,v,1,0.5500277499995718,203534,001,2022-09-30_11h59.33.809,lab tut 4,2022.2.4,60.131613067922224,
-50.0,x,,,,,12,3,51,0,383.75877737500014,384.7586517919999,384.7586517919999,384.7586517919999,384.7586517919999,384.7586517919999,385.75849279199974,385.75849279199974,x,1,0.47735966599975654,203534,001,2022-09-30_11h59.33.809,lab tut 4,2022.2.4,60.131613067922224,
50.0,c,,,,,13,0,52,2,386.2587624589996,387.25889791700047,387.25889791700047,387.25889791700047,387.25889791700047,387.25889791700047,388.2588802500004,388.2588802500004,c,1,0.6723167079999257,203534,001,2022-09-30_11h59.33.809,lab tut 4,2022.2.4,60.131613067922224,
-50.0,x,,,,,13,1,53,0,388.9580283340001,389.95895579199987,389.95895579199987,389.95895579199987,389.95895579199987,389.95895579199987,390.95875966699987,390.95875966699987,x,1,0.6014203739996447,203534,001,2022-09-30_11h59.33.809,lab tut 4,2022.2.4,60.131613067922224,
-150.0,z,,,,,13,2,54,3,391.591602167,392.5921100840005,392.5921100840005,392.5921100840005,392.5921100840005,392.5921100840005,393.59247049999976,393.59247049999976,z,1,0.6676198750001276,203534,001,2022-09-30_11h59.33.809,lab tut 4,2022.2.4,60.131613067922224,
150.0,v,,,,,13,3,55,1,394.29237679200014,395.2916858340004,395.2916858340004,395.2916858340004,395.2916858340004,395.2916858340004,396.2919419589998,396.2919419589998,v,1,0.7415105410000251,203534,001,2022-09-30_11h59.33.809,lab tut 4,2022.2.4,60.131613067922224,
50.0,c,,,,,14,0,56,2,397.05895404199964,398.04239425000014,398.04239425000014,398.04239425000014,398.04239425000014,398.058771,399.05891950000023,399.05891950000023,c,1,0.6476465409996308,203534,001,2022-09-30_11h59.33.809,lab tut 4,2022.2.4,60.131613067922224,
150.0,v,,,,,14,1,57,1,399.72630200000003,400.72546033399976,400.72546033399976,400.72546033399976,400.72546033399976,400.72546033399976,401.7251502090003,401.7251502090003,v,1,0.666140916000586,203534,001,2022-09-30_11h59.33.809,lab tut 4,2022.2.4,60.131613067922224,
-50.0,x,,,,,14,2,58,0,402.40915912499986,403.40934712499984,403.40934712499984,403.40934712499984,403.40934712499984,403.40934712499984,404.40928774999975,404.40928774999975,x,1,0.6898176239992608,203534,001,2022-09-30_11h59.33.809,lab tut 4,2022.2.4,60.131613067922224,
-150.0,z,,,,,14,3,59,3,405.12536691700006,406.12539958399975,406.12539958399975,406.12539958399975,406.12539958399975,406.12539958399975,407.1257331249999,407.1257331249999,z,1,0.8329203739995137,203534,001,2022-09-30_11h59.33.809,lab tut 4,2022.2.4,60.131613067922224,
-150.0,z,,,,,15,0,60,3,407.9762566669997,408.9753651250003,408.9753651250003,408.9753651250003,408.9753651250003,408.9753651250003,409.9759852090001,409.9759852090001,z,1,0.7932705819994226,203534,001,2022-09-30_11h59.33.809,lab tut 4,2022.2.4,60.131613067922224,
50.0,c,,,,,15,1,61,2,410.79271008399974,411.7922897090002,411.7922897090002,411.7922897090002,411.7922897090002,411.7922897090002,412.79245025,412.79245025,c,1,1.2398531660001026,203534,001,2022-09-30_11h59.33.809,lab tut 4,2022.2.4,60.131613067922224,
-50.0,x,,,,,15,2,62,0,414.05910945899996,415.0588594589999,415.0588594589999,415.0588594589999,415.0588594589999,415.0588594589999,416.0586599170001,416.0586599170001,x,1,0.574827624000136,203534,001,2022-09-30_11h59.33.809,lab tut 4,2022.2.4,60.131613067922224,
150.0,v,,,,,15,3,63,1,416.6591443750003,417.65963395900053,417.65963395900053,417.65963395900053,417.65963395900053,417.65963395900053,418.6596964170003,418.6596964170003,v,1,0.5972566660002485,203534,001,2022-09-30_11h59.33.809,lab tut 4,2022.2.4,60.131613067922224,
150.0,v,,,,,16,0,64,1,419.27611133400023,420.27588745899993,420.27588745899993,420.27588745899993,420.27588745899993,420.27588745899993,421.2762433750004,421.2762433750004,v,1,0.8260743329992692,203534,001,2022-09-30_11h59.33.809,lab tut 4,2022.2.4,60.131613067922224,
-150.0,z,,,,,16,1,65,3,422.1257709170004,423.12572287500006,423.12572287500006,423.12572287500006,423.12572287500006,423.12572287500006,424.1260901249998,424.1260901249998,z,1,0.6123803330001465,203534,001,2022-09-30_11h59.33.809,lab tut 4,2022.2.4,60.131613067922224,
50.0,c,,,,,16,2,66,2,424.7599150420001,425.7589107499998,425.7589107499998,425.7589107499998,425.7589107499998,425.7589107499998,426.7595634170002,426.7595634170002,c,1,0.710486499999206,203534,001,2022-09-30_11h59.33.809,lab tut 4,2022.2.4,60.131613067922224,
-50.0,x,,,,,16,3,67,0,427.492869834,428.49347120899984,428.49347120899984,428.49347120899984,428.49347120899984,428.49347120899984,429.4925551670003,429.4925551670003,x,1,0.5905940409993491,203534,001,2022-09-30_11h59.33.809,lab tut 4,2022.2.4,60.131613067922224,
50.0,c,,,,,17,0,68,2,430.109635625,431.09324749999996,431.09324749999996,431.09324749999996,431.09324749999996,431.10910683400016,432.10947354200016,432.10947354200016,c,1,0.7087147490001371,203534,001,2022-09-30_11h59.33.809,lab tut 4,2022.2.4,60.131613067922224,
-50.0,x,,,,,17,1,69,0,432.84261049999986,433.8429544170003,433.8429544170003,433.8429544170003,433.8429544170003,433.8429544170003,434.8430500000004,434.8430500000004,x,1,0.6859894159997566,203534,001,2022-09-30_11h59.33.809,lab tut 4,2022.2.4,60.131613067922224,
150.0,v,,,,,17,2,70,1,435.55924929200046,436.5593064169998,436.5593064169998,436.5593064169998,436.5593064169998,436.5593064169998,437.5593434170005,437.5593434170005,v,1,0.618378125000163,203534,001,2022-09-30_11h59.33.809,lab tut 4,2022.2.4,60.131613067922224,
-150.0,z,,,,,17,3,71,3,438.2092604999998,439.20948979199966,439.20948979199966,439.20948979199966,439.20948979199966,439.20948979199966,440.20935929200004,440.20935929200004,z,1,0.8608269579999615,203534,001,2022-09-30_11h59.33.809,lab tut 4,2022.2.4,60.131613067922224,
-150.0,z,,,,,18,0,72,3,441.09294145900003,442.0930069169999,442.0930069169999,442.0930069169999,442.0930069169999,442.0930069169999,443.0932282499998,443.0932282499998,z,1,0.7166822499993941,203534,001,2022-09-30_11h59.33.809,lab tut 4,2022.2.4,60.131613067922224,
50.0,c,,,,,18,1,73,2,443.8426047920002,444.8428134169999,444.8428134169999,444.8428134169999,444.8428134169999,444.8428134169999,445.84251979200053,445.84251979200053,c,1,0.7493497079994995,203534,001,2022-09-30_11h59.33.809,lab tut 4,2022.2.4,60.131613067922224,
150.0,v,,,,,18,2,74,1,446.6101575419998,447.59284529199977,447.59284529199977,447.59284529199977,447.59284529199977,447.6093592500001,448.60917308399985,448.60917308399985,v,1,0.819376874000227,203534,001,2022-09-30_11h59.33.809,lab tut 4,2022.2.4,60.131613067922224,
-50.0,x,,,,,18,3,75,0,449.45943383400027,450.4594710000001,450.4594710000001,450.4594710000001,450.4594710000001,450.4594710000001,451.45983499999966,451.45983499999966,x,1,0.7655066239994994,203534,001,2022-09-30_11h59.33.809,lab tut 4,2022.2.4,60.131613067922224,
-150.0,z,,,,,19,0,76,3,452.2432169169997,453.24287333400025,453.24287333400025,453.24287333400025,453.24287333400025,453.24287333400025,454.242708709,454.242708709,z,1,0.6586996659998476,203534,001,2022-09-30_11h59.33.809,lab tut 4,2022.2.4,60.131613067922224,
150.0,v,,,,,19,1,77,1,454.9264901249999,455.92621662500005,455.92621662500005,455.92621662500005,455.92621662500005,455.92621662500005,456.92633054199996,456.92633054199996,v,1,0.8162394990004032,203534,001,2022-09-30_11h59.33.809,lab tut 4,2022.2.4,60.131613067922224,
50.0,c,,,,,19,2,78,2,457.7603483339999,458.7432467919998,458.7432467919998,458.7432467919998,458.7432467919998,458.7595077920005,459.7599176250005,459.7599176250005,c,1,0.7368657080005505,203534,001,2022-09-30_11h59.33.809,lab tut 4,2022.2.4,60.131613067922224,
-50.0,x,,,,,19,3,79,0,460.5262602089997,461.5264963340005,461.5264963340005,461.5264963340005,461.5264963340005,461.5264963340005,462.5260715840004,462.5260715840004,x,1,0.63539124899944,203534,001,2022-09-30_11h59.33.809,lab tut 4,2022.2.4,60.131613067922224,
-150.0,z,,,,,20,0,80,3,463.1929015420001,464.1927064170004,464.1927064170004,464.1927064170004,464.1927064170004,464.1927064170004,465.19338962500024,465.19338962500024,z,1,0.731778540999585,203534,001,2022-09-30_11h59.33.809,lab tut 4,2022.2.4,60.131613067922224,
50.0,c,,,,,20,1,81,2,465.94374074999996,466.9432072090003,466.9432072090003,466.9432072090003,466.9432072090003,466.9432072090003,467.9438227090004,467.9438227090004,c,1,0.6322877490001702,203534,001,2022-09-30_11h59.33.809,lab tut 4,2022.2.4,60.131613067922224,
-50.0,x,,,,,20,2,82,0,468.59346833400014,469.5934953750002,469.5934953750002,469.5934953750002,469.5934953750002,469.5934953750002,470.5935762500003,470.5935762500003,x,1,0.6231024569997317,203534,001,2022-09-30_11h59.33.809,lab tut 4,2022.2.4,60.131613067922224,
150.0,v,,,,,20,3,83,1,471.2429737499997,472.24368912499995,472.24368912499995,472.24368912499995,472.24368912499995,472.24368912499995,473.24334012500003,473.24334012500003,v,1,0.7921234579998782,203534,001,2022-09-30_11h59.33.809,lab tut 4,2022.2.4,60.131613067922224,
-50.0,x,,,,,21,0,84,0,474.0595634170004,475.05974716699984,475.05974716699984,475.05974716699984,475.05974716699984,475.05974716699984,476.0599375419997,476.0599375419997,x,1,0.9653384579996782,203534,001,2022-09-30_11h59.33.809,lab tut 4,2022.2.4,60.131613067922224,
50.0,c,,,,,21,1,85,2,477.0436962089998,478.0433085000004,478.0433085000004,478.0433085000004,478.0433085000004,478.0433085000004,479.04320949999965,479.04320949999965,c,1,0.7318097489996944,203534,001,2022-09-30_11h59.33.809,lab tut 4,2022.2.4,60.131613067922224,
150.0,v,,,,,21,2,86,1,479.79341787500016,480.79329245900044,480.79329245900044,480.79329245900044,480.79329245900044,480.79329245900044,481.79388087500047,481.79388087500047,v,1,0.7484599990002607,203534,001,2022-09-30_11h59.33.809,lab tut 4,2022.2.4,60.131613067922224,
-150.0,z,,,,,21,3,87,3,482.5605348750005,483.5607006250002,483.5607006250002,483.5607006250002,483.5607006250002,483.5607006250002,484.55982020900046,484.55982020900046,z,1,0.7246382489993266,203534,001,2022-09-30_11h59.33.809,lab tut 4,2022.2.4,60.131613067922224,
-150.0,z,,,,,22,0,88,3,485.3099541669999,486.3099382500004,486.3099382500004,486.3099382500004,486.3099382500004,486.3099382500004,487.31008170899986,487.31008170899986,z,1,0.8587613319996308,203534,001,2022-09-30_11h59.33.809,lab tut 4,2022.2.4,60.131613067922224,
50.0,c,,,,,22,1,89,2,488.1932605840002,489.19365712499985,489.19365712499985,489.19365712499985,489.19365712499985,489.19365712499985,490.1934608339998,490.1934608339998,c,1,0.7901239160000841,203534,001,2022-09-30_11h59.33.809,lab tut 4,2022.2.4,60.131613067922224,
150.0,v,,,,,22,2,90,1,491.0103959999997,492.01015358400036,492.01015358400036,492.01015358400036,492.01015358400036,492.01015358400036,493.01013191699985,493.01013191699985,v,1,0.8099232909999046,203534,001,2022-09-30_11h59.33.809,lab tut 4,2022.2.4,60.131613067922224,
-50.0,x,,,,,22,3,91,0,493.84421179200035,494.8432497920003,494.8432497920003,494.8432497920003,494.8432497920003,494.8432497920003,495.8431312920002,495.8431312920002,x,1,0.695824332000484,203534,001,2022-09-30_11h59.33.809,lab tut 4,2022.2.4,60.131613067922224,
-150.0,z,,,,,23,0,92,3,496.560862542,497.5606850840004,497.5606850840004,497.5606850840004,497.5606850840004,497.5606850840004,498.56084937499963,498.56084937499963,z,1,0.6726024569998117,203534,001,2022-09-30_11h59.33.809,lab tut 4,2022.2.4,60.131613067922224,
-50.0,x,,,,,23,1,93,0,499.26103375,500.26032070899964,500.26032070899964,500.26032070899964,500.26032070899964,500.26032070899964,501.25994820899996,501.25994820899996,x,1,0.6838735409992296,203534,001,2022-09-30_11h59.33.809,lab tut 4,2022.2.4,60.131613067922224,
50.0,c,,,,,23,2,94,2,501.9611092089999,502.9608651670005,502.9608651670005,502.9608651670005,502.9608651670005,502.9608651670005,503.96049287500045,503.96049287500045,c,1,0.5817820820002453,203534,001,2022-09-30_11h59.33.809,lab tut 4,2022.2.4,60.131613067922224,
150.0,v,,,,,23,3,95,1,504.5608553339998,505.5601945839999,505.5601945839999,505.5601945839999,505.5601945839999,505.5601945839999,506.5606969170003,506.5606969170003,v,1,0.7844350409995968,203534,001,2022-09-30_11h59.33.809,lab tut 4,2022.2.4,60.131613067922224,
